package main

import (
	"fmt"
	"math/rand"
	"os"
	"time"

	"github.com/marcusljx/eevee3/lib/eevee3"

	"github.com/marcusljx/eevee3/lib/examples/buysell"
)

func main() {
	type T = buysell.TUnderlying

	handler := &buysell.Handler{
		Rand:   rand.New(rand.NewSource(time.Now().Unix())),
		Prices: prices,
	}

	data := &eevee3.Controller[T]{
		Recorder:                        eevee3.NewIOWriterRecorder[T](os.Stderr, eevee3.RecordEverything),
		GenerationCycles:                1000,
		PopulationSize:                  50,
		MutationProbability:             1,
		CrossoverSelectionStrategy:      eevee3.SelectRandomPairs[T](),
		CrossoverProbability:            1,
		NextGenerationSelectionStrategy: eevee3.SelectBestAndWorstSubgroup[T](0.6),
		TerminationConditions: []eevee3.PopulationPredicate[T]{
			eevee3.TrueWhenAllSolutionsEqual[T](),
		},
	}

	result := eevee3.RunSingle[T](handler, data)
	fmt.Print(result.Describe())

}

var (
	prices = []float64{
		139.64,
		140.13,
		140.14,
		140.15,
		140.15,
		140.16,
		140.16,
		140.16,
		140.13,
		140.13,
		140.12,
		140.12,
		140.12,
		140.04,
		140.01,
		140.01,
		139.91,
		139.9,
		139.67,
		139.425,
		139.61,
		139.535,
		139.48,
		139.495,
		139.5,
		139.5,
		139.445,
		139.455,
		139.41,
		139.41,
		139.41,
		139.47,
		139.68,
		139.69,
		139.8,
		139.8,
		139.8,
		139.79,
		139.79,
		139.79,
		139.75,
		139.7,
		139.7,
		139.7,
		139.71,
		139.71,
		139.71,
		139.71,
		139.71,
		139.69,
		139.69,
		139.69,
		139.69,
		139.73,
		139.73,
		139.76,
		139.77,
		139.72,
		139.75,
		139.75,
		139.75,
		139.835,
		139.835,
		139.755,
		139.66,
		139.67,
		139.71,
		139.67,
		139.635,
		139.635,
		139.67,
		139.66,
		139.67,
		139.695,
		139.83,
		139.94,
		139.935,
		139.95,
		139.89,
		139.895,
		139.93,
		139.93,
		139.92,
		140.04,
		140.015,
		140.005,
		140.005,
		140.005,
		140.0,
		140.015,
		139.99,
		140.0,
		139.93,
		139.985,
		140.045,
		140.09,
		140.07,
		140.13,
		140.115,
		140.115,
		140.04,
		140.03,
		140.03,
		140.1,
		140.105,
		140.14,
		140.04,
		140.05,
		140.05,
		140.08,
		140.05,
		140.01,
		140.015,
		140.01,
		139.97,
		139.91,
		139.91,
		139.91,
		139.91,
		139.91,
		139.9,
		139.895,
		139.89,
		139.89,
		139.88,
		139.86,
		139.87,
		139.87,
		139.86,
		139.88,
		139.88,
		139.89,
		139.89,
		139.75,
		139.75,
		139.75,
		139.745,
		139.81,
		139.81,
		139.78,
		139.78,
		139.76,
		139.7,
		139.7,
		139.7,
		139.67,
		139.65,
		139.68,
		139.68,
		139.65,
		139.64,
		139.64,
		139.64,
		139.62,
		139.685,
		139.69,
		139.7,
		139.68,
		139.68,
		139.74,
		139.74,
		139.765,
		139.77,
		139.715,
		139.695,
		139.68,
		139.69,
		139.69,
		139.69,
		139.69,
		139.6,
		139.6,
		139.59,
		139.68,
		139.68,
		139.68,
		139.68,
		139.68,
		139.68,
		139.725,
		139.68,
		139.58,
		139.64,
		139.59,
		139.59,
		139.695,
		139.68,
		139.685,
		139.71,
		139.645,
		139.68,
		139.73,
		139.685,
		139.65,
		139.65,
		139.675,
		139.69,
		139.68,
		139.69,
		139.66,
		139.66,
		139.66,
		139.65,
		139.63,
		139.67,
		139.66,
		139.66,
		139.69,
		139.69,
		139.69,
		139.69,
		139.665,
		139.61,
		139.61,
		139.62,
		139.62,
		139.545,
		139.535,
		139.535,
		139.575,
		139.53,
		139.515,
		139.505,
		139.5,
		139.5,
		139.5,
		139.5,
		139.51,
		139.51,
		139.51,
		139.51,
		139.52,
		139.49,
		139.53,
		139.51,
		139.51,
		139.52,
		139.52,
		139.53,
		139.54,
		139.52,
		139.52,
		139.5,
		139.5,
		139.5,
		139.47,
		139.47,
		139.45,
		139.44,
		139.39,
		139.4,
		139.42,
		139.375,
		139.36,
		139.33,
		139.28,
		139.25,
		139.25,
		139.24,
		139.24,
		139.23,
		139.23,
		139.205,
		139.21,
		139.23,
		139.19,
		139.21,
		139.21,
		139.21,
		139.21,
		139.21,
		139.21,
		139.255,
		139.32,
		139.26,
		139.28,
		139.29,
		139.28,
		139.28,
		139.23,
		139.23,
		139.26,
		139.28,
		139.25,
		139.275,
		139.26,
		139.26,
		139.28,
		139.28,
		139.27,
		139.27,
		139.28,
		139.3,
		139.33,
		139.35,
		139.33,
		139.33,
		139.33,
		139.34,
		139.34,
		139.34,
		139.34,
		139.34,
		139.34,
		139.34,
		139.34,
		139.34,
		139.34,
		139.34,
		139.35,
		139.37,
		139.37,
		139.41,
		139.42,
		139.39,
		139.415,
		139.41,
		139.45,
		139.49,
		139.45,
		139.45,
		139.45,
		139.43,
		139.43,
		139.41,
		139.46,
		139.44,
		139.44,
		139.42,
		139.41,
		139.41,
		139.41,
		139.415,
		139.42,
		139.42,
		139.42,
		139.42,
		139.43,
		139.43,
		139.43,
		139.44,
		139.42,
		139.42,
		139.44,
		139.515,
		139.62,
		139.625,
		139.665,
		139.665,
		139.665,
		139.59,
		139.655,
		139.67,
		139.67,
		139.67,
		139.665,
		139.665,
		139.68,
		139.665,
		139.675,
		139.68,
		139.68,
		139.68,
		139.68,
		139.685,
		139.69,
		139.76,
		139.77,
		139.78,
		139.78,
		139.81,
		139.795,
		139.8,
		139.82,
		139.81,
		139.81,
		139.815,
		139.82,
		139.82,
		139.83,
		139.83,
		139.8,
		139.83,
		139.81,
		139.805,
		139.8,
		139.8,
		139.76,
		139.75,
		139.76,
		139.74,
		139.73,
		139.73,
		139.69,
		139.65,
		139.65,
		139.6,
		139.63,
		139.62,
		139.62,
		139.64,
		139.58,
		139.5,
		139.51,
		139.51,
		139.51,
		139.51,
		139.51,
		139.45,
		139.46,
		139.48,
		139.49,
		139.46,
		139.46,
		139.47,
		139.47,
		139.47,
		139.45,
		139.47,
		139.5,
		139.56,
		139.59,
		139.65,
		139.65,
		139.65,
		139.65,
		139.55,
		139.565,
		139.48,
		139.52,
		139.52,
		139.49,
		139.47,
		139.46,
		139.46,
		139.46,
		139.44,
		139.44,
		139.48,
		139.48,
		139.48,
		139.48,
		139.48,
		139.48,
		139.48,
		139.48,
		139.48,
		139.48,
		139.48,
		139.48,
		139.5,
		139.5,
		139.535,
		139.535,
		139.52,
		139.52,
		139.52,
		139.52,
		139.52,
		139.52,
		139.52,
		139.51,
		139.44,
		139.44,
		139.47,
		139.46,
		139.4,
		139.41,
		139.42,
		139.43,
		139.445,
		139.46,
		139.46,
		139.46,
		139.46,
		139.39,
		139.39,
		139.39,
		139.39,
		139.4,
		139.37,
		139.37,
		139.34,
		139.34,
		139.34,
		139.35,
		139.36,
		139.355,
		139.35,
		139.355,
		139.355,
		139.355,
		139.355,
		139.355,
		139.355,
		139.345,
		139.37,
		139.37,
		139.37,
		139.37,
		139.37,
		139.37,
		139.37,
		139.46,
		139.45,
		139.475,
		139.48,
		139.485,
		139.49,
		139.52,
		139.54,
		139.54,
		139.51,
		139.505,
		139.495,
		139.48,
		139.48,
		139.5,
		139.525,
		139.53,
		139.53,
		139.56,
		139.56,
		139.56,
		139.56,
		139.56,
		139.56,
		139.56,
		139.56,
		139.56,
		139.56,
		139.56,
		139.56,
		139.575,
		139.58,
		139.58,
		139.58,
		139.55,
		139.5,
		139.53,
		139.55,
		139.595,
		139.61,
		139.61,
		139.61,
		139.62,
		139.62,
		139.62,
		139.6,
		139.62,
		139.62,
		139.63,
		139.64,
		139.6,
		139.6,
		139.62,
		139.63,
		139.62,
		139.62,
		139.62,
		139.62,
		139.605,
		139.62,
		139.62,
		139.6,
		139.59,
		139.59,
		139.595,
		139.59,
		139.6,
		139.61,
		139.6,
		139.59,
		139.59,
		139.59,
		139.6,
		139.6,
		139.59,
		139.6,
		139.6,
		139.6,
		139.6,
		139.6,
		139.6,
		139.6,
		139.59,
		139.59,
		139.59,
		139.6,
		139.6,
		139.59,
		139.6,
		139.6,
		139.61,
		139.51,
		139.51,
		139.51,
		139.5,
		139.5,
		139.44,
		139.46,
		139.46,
		139.44,
		139.44,
		139.43,
		139.43,
		139.45,
		139.45,
		139.42,
		139.42,
		139.42,
		139.42,
		139.43,
		139.43,
		139.43,
		139.47,
		139.5,
		139.5,
		139.5,
		139.49,
		139.48,
		139.46,
		139.475,
		139.46,
		139.42,
		139.35,
		139.355,
		139.395,
		139.39,
		139.4,
		139.4,
		139.435,
		139.435,
		139.37,
		139.36,
		139.335,
		139.33,
		139.325,
		139.315,
		139.29,
		139.295,
		139.285,
		139.28,
		139.28,
		139.27,
		139.295,
		139.315,
		139.31,
		139.3,
		139.305,
		139.3,
		139.26,
		139.255,
		139.33,
		139.33,
		139.325,
		139.35,
		139.36,
		139.33,
		139.34,
		139.32,
		139.29,
		139.275,
		139.275,
		139.26,
		139.22,
		139.22,
		139.28,
		139.295,
		139.36,
		139.36,
		139.35,
		139.33,
		139.32,
		139.29,
		139.27,
		139.285,
		139.285,
		139.33,
		139.35,
		139.35,
		139.35,
		139.35,
		139.35,
		139.36,
		139.37,
		139.37,
		139.41,
		139.405,
		139.41,
		139.495,
		139.475,
		139.48,
		139.43,
		139.425,
		139.45,
		139.45,
		139.46,
		139.45,
		139.45,
		139.45,
		139.46,
		139.4,
		139.35,
		139.305,
		139.27,
		139.44,
		139.42,
		139.41,
		139.41,
		139.47,
		139.45,
		139.45,
		139.45,
		139.48,
		139.47,
		139.46,
		139.565,
		139.565,
		139.57,
		139.54,
		139.53,
		139.54,
		139.56,
		139.6,
		139.605,
		139.71,
		139.67,
		139.645,
		139.67,
		139.68,
		139.65,
		139.64,
		139.7,
		139.67,
		139.67,
		139.695,
		139.69,
		139.71,
		139.71,
		139.71,
		139.745,
		139.74,
		139.67,
		139.71,
		139.74,
		139.74,
		139.74,
		139.74,
		139.72,
		139.73,
		139.72,
		139.715,
		139.715,
		139.71,
		139.71,
		139.73,
		139.64,
		139.63,
		139.66,
		139.71,
		139.72,
		139.61,
		139.61,
		139.63,
		139.63,
		139.62,
		139.65,
		139.63,
		139.62,
		139.5,
		139.53,
		139.535,
		139.55,
		139.555,
		139.545,
		139.545,
		139.55,
		139.55,
		139.54,
		139.54,
		139.54,
		139.47,
		139.47,
		139.505,
		139.54,
		139.54,
		139.53,
		139.53,
		139.53,
		139.59,
		139.59,
		139.59,
		139.56,
		139.56,
		139.56,
		139.56,
		139.6,
		139.6,
		139.55,
		139.57,
		139.6,
		139.6,
		139.6,
		139.6,
		139.6,
		139.6,
		139.595,
		139.585,
		139.56,
		139.56,
		139.58,
		139.625,
		139.65,
		139.68,
		139.675,
		139.68,
		139.695,
		139.7,
		139.725,
		139.715,
		139.715,
		139.78,
		139.84,
		139.84,
		139.825,
		139.82,
		139.75,
		139.79,
		139.79,
		139.8,
		139.78,
		139.78,
		139.8,
		139.795,
		139.78,
		139.78,
		139.775,
		139.75,
		139.75,
		139.79,
		139.8,
		139.79,
		139.79,
		139.79,
		139.795,
		139.785,
		139.82,
		139.8,
		139.8,
		139.8,
		139.79,
		139.82,
		139.82,
		139.85,
		139.84,
		139.82,
		139.84,
		139.85,
		139.85,
		139.87,
		139.87,
		139.865,
		139.865,
		139.875,
		139.895,
		139.86,
		139.86,
		139.86,
		139.89,
		139.9,
		139.905,
		139.9,
		139.9,
		139.905,
		139.9,
		139.9,
		139.91,
		139.9,
		139.905,
		139.9,
		139.9,
		139.9,
		139.75,
		139.74,
		139.71,
		139.655,
		139.65,
		139.68,
		139.7,
		139.71,
		139.75,
		139.77,
		139.765,
		139.76,
		139.76,
		139.81,
		139.82,
		139.82,
		139.8,
		139.8,
		139.8,
		139.8,
		139.83,
		139.84,
		139.84,
		139.855,
		139.83,
		139.805,
		139.79,
		139.85,
		139.86,
		139.84,
		139.83,
		139.85,
		139.85,
		139.85,
		139.81,
		139.77,
		139.78,
		139.67,
		139.69,
		139.69,
		139.71,
		139.7,
		139.7,
		139.69,
		139.655,
		139.64,
		139.625,
		139.57,
		139.57,
		139.49,
		139.48,
		139.535,
		139.51,
		139.53,
		139.34,
		139.35,
		139.325,
		139.31,
		139.39,
		139.45,
		139.36,
		139.36,
		139.43,
		139.43,
		139.45,
		139.44,
		139.46,
		139.5,
		139.5,
		139.42,
		139.45,
		139.48,
		139.475,
		139.52,
		139.52,
		139.495,
		139.495,
		139.505,
		139.47,
		139.505,
		139.53,
		139.545,
		139.55,
		139.53,
		139.58,
		139.525,
		139.525,
		139.535,
		139.54,
		139.51,
		139.51,
		139.495,
		139.455,
		139.43,
		139.42,
		139.37,
		139.38,
		139.32,
		139.31,
		139.34,
		139.33,
		139.34,
		139.34,
		139.365,
		139.37,
		139.43,
		139.43,
		139.44,
		139.45,
		139.48,
		139.5,
		139.5,
		139.5,
		139.5,
		139.5,
		139.515,
		139.525,
		139.58,
		139.58,
		139.52,
		139.6,
		139.62,
		139.71,
		139.69,
		139.72,
		139.73,
		139.73,
		139.74,
		139.7,
		139.75,
		139.73,
		139.7,
		139.76,
		139.76,
		139.77,
		139.77,
		139.79,
		139.78,
		139.76,
		139.76,
		139.75,
		139.74,
		139.72,
		139.72,
		139.715,
		139.66,
		139.66,
		139.645,
		139.64,
		139.655,
		139.76,
		139.8,
		139.78,
		139.78,
		139.84,
		139.85,
		139.85,
		139.85,
		139.835,
		139.81,
		139.86,
		139.88,
		139.81,
		139.81,
		139.88,
		139.86,
		139.86,
		139.85,
		139.85,
		139.85,
		139.85,
		139.84,
		139.84,
		139.89,
		139.9,
		139.885,
		139.88,
		139.93,
		139.93,
		139.96,
		139.985,
		139.98,
		139.98,
		139.98,
		139.98,
		139.98,
		139.98,
		139.99,
		140.0,
		140.0,
		140.02,
		140.02,
		140.05,
		140.05,
		140.065,
		140.08,
		140.08,
		140.08,
		140.06,
		140.07,
		140.065,
		140.08,
		140.08,
		140.1,
		140.105,
		140.14,
		140.1,
		140.1,
		140.1,
		140.11,
		140.095,
		140.14,
		140.14,
		140.145,
		140.1,
		140.095,
		140.09,
		140.095,
		140.095,
		140.095,
		140.095,
		140.09,
		140.09,
		140.095,
		140.075,
		140.07,
		140.07,
		140.07,
		140.085,
		140.085,
		140.085,
		140.08,
		140.03,
		140.01,
		140.035,
		140.02,
		139.995,
		140.02,
		140.04,
		140.04,
		140.04,
		140.06,
		140.06,
		140.05,
		140.06,
		140.055,
		140.05,
		140.03,
		140.04,
		140.02,
		140.03,
		140.04,
		140.04,
		140.06,
		140.07,
		140.07,
		140.07,
		140.035,
		140.035,
		140.03,
		140.01,
		140.04,
		140.03,
		140.05,
		140.05,
		140.1,
		140.08,
		140.08,
		140.08,
		140.115,
		140.1,
		140.15,
		140.19,
		140.19,
		140.185,
		140.2,
		140.18,
		140.19,
		140.2,
		140.215,
		140.24,
		140.235,
		140.22,
		140.23,
		140.235,
		140.25,
		140.24,
		140.27,
		140.3,
		140.3,
		140.24,
		140.28,
		140.245,
		140.245,
		140.245,
		140.245,
		140.21,
		140.225,
		140.235,
		140.225,
		140.225,
		140.225,
		140.225,
		140.225,
		140.225,
		140.225,
		140.225,
		140.225,
		140.225,
		140.225,
		140.225,
		140.225,
		140.225,
		140.225,
		140.225,
		140.22,
		140.22,
		140.21,
		140.235,
		140.29,
		140.285,
		140.285,
		140.255,
		140.27,
		140.24,
		140.24,
		140.24,
		140.24,
		140.255,
		140.26,
		140.26,
		140.26,
		140.24,
		140.24,
		140.24,
		140.24,
		140.21,
		140.21,
		140.21,
		140.21,
		140.21,
		140.17,
		140.17,
		140.165,
		140.165,
		140.17,
		140.17,
		140.17,
		140.18,
		140.21,
		140.17,
		140.17,
		140.17,
		140.13,
		140.08,
		140.035,
		140.035,
		140.035,
		140.03,
		140.065,
		140.065,
		140.055,
		140.05,
		140.05,
		140.07,
		140.065,
		140.065,
		140.08,
		140.09,
		140.085,
		140.085,
		140.08,
		140.07,
		140.08,
		140.085,
		140.055,
		140.045,
		140.025,
		140.005,
		140.005,
		140.01,
		140.015,
		140.045,
		140.06,
		140.06,
		140.045,
		140.045,
		140.04,
		140.005,
		140.04,
		140.04,
		140.04,
		140.04,
		140.055,
		140.045,
		140.06,
		140.055,
		140.04,
		140.05,
		140.05,
		140.035,
		140.035,
		140.03,
		140.05,
		140.03,
		140.03,
		140.04,
		140.03,
		139.98,
		139.98,
		139.975,
		139.97,
		139.97,
		140.005,
		140.02,
		139.995,
		140.01,
		140.01,
		140.01,
		140.01,
		140.02,
		140.02,
		140.03,
		140.03,
		140.0,
		140.015,
		140.03,
		140.025,
		140.04,
		140.045,
		140.035,
		140.035,
		140.065,
		140.09,
		140.02,
		140.02,
		140.04,
		140.03,
		140.03,
		140.04,
		140.04,
		140.04,
		140.06,
		140.05,
		140.025,
		140.11,
		140.095,
		140.13,
		140.14,
		140.155,
		140.135,
		140.13,
		140.155,
		140.15,
		140.17,
		140.19,
		140.19,
		140.19,
		140.19,
		140.2,
		140.21,
		140.18,
		140.14,
		140.08,
		140.025,
		140.025,
		140.01,
		140.02,
		140.015,
		140.01,
		140.03,
		140.04,
		140.03,
		140.04,
		140.01,
		139.995,
		139.965,
		139.965,
		139.965,
		139.965,
		139.96,
		139.96,
		139.96,
		139.96,
		139.96,
		139.96,
		139.96,
		139.96,
		139.96,
		139.96,
		139.96,
		139.96,
		139.96,
		139.96,
		139.97,
		139.95,
		139.95,
		139.955,
		139.955,
		139.97,
		139.98,
		139.935,
		139.9,
		139.91,
		139.9,
		139.92,
		139.89,
		139.89,
		139.89,
		139.89,
		139.89,
		139.94,
		139.92,
		139.9,
		139.9,
		139.9,
		139.9,
		139.9,
		139.9,
		139.9,
		139.9,
		139.91,
		139.925,
		139.93,
		139.97,
		139.98,
		139.98,
		139.98,
		139.99,
		139.99,
		140.01,
		140.01,
		140.07,
		140.08,
		140.08,
		140.08,
		140.08,
		140.08,
		140.1,
		140.17,
		140.17,
		140.17,
		140.17,
		140.17,
		140.17,
		140.15,
		140.15,
		140.15,
		140.16,
		140.18,
		140.19,
		140.2,
		140.2,
		140.18,
		140.185,
		140.18,
		140.18,
		140.14,
		140.15,
		140.15,
		140.17,
		140.17,
		140.21,
		140.25,
		140.26,
		140.25,
		140.25,
		140.24,
		140.24,
		140.24,
		140.24,
		140.24,
		140.235,
		140.235,
		140.235,
		140.235,
		140.235,
		140.23,
		140.225,
		140.225,
		140.215,
		140.205,
		140.205,
		140.205,
		140.205,
		140.2,
		140.2,
		140.22,
		140.22,
		140.22,
		140.23,
		140.22,
		140.235,
		140.285,
		140.27,
		140.27,
		140.3,
		140.3,
		140.3,
		140.32,
		140.27,
		140.27,
		140.3,
		140.3,
		140.35,
		140.35,
		140.35,
		140.365,
		140.38,
		140.36,
		140.355,
		140.385,
		140.395,
		140.44,
		140.44,
		140.45,
		140.45,
		140.47,
		140.47,
		140.49,
		140.52,
		140.52,
		140.52,
		140.52,
		140.52,
		140.52,
		140.52,
		140.52,
		140.52,
		140.52,
		140.52,
		140.495,
		140.54,
		140.54,
		140.54,
		140.54,
		140.55,
		140.53,
		140.55,
		140.55,
		140.54,
		140.49,
		140.46,
		140.445,
		140.43,
		140.41,
		140.42,
		140.44,
		140.34,
		140.37,
		140.28,
		140.33,
		140.31,
		140.31,
		140.31,
		140.28,
		140.31,
		140.31,
		140.33,
		140.31,
		140.3,
		140.28,
		140.28,
		140.28,
		140.26,
		140.26,
		140.27,
		140.23,
		140.29,
		140.27,
		140.25,
		140.24,
		140.22,
		140.21,
		140.22,
		140.19,
		140.195,
		140.19,
		140.4,
		140.47,
		140.46,
		140.45,
		140.45,
		140.45,
		140.33,
		140.37,
		140.39,
		140.4,
		140.39,
		140.41,
		140.405,
		140.35,
		140.39,
		140.39,
		140.38,
		140.38,
		140.44,
		140.47,
		140.44,
		140.45,
		140.41,
		140.415,
		140.42,
		140.425,
		140.425,
		140.47,
		140.41,
		140.46,
		140.485,
		140.505,
		140.5,
		140.515,
		140.515,
		140.51,
		140.515,
		140.52,
		140.52,
		140.505,
		140.51,
		140.51,
		140.51,
		140.51,
		140.545,
		140.53,
		140.54,
		140.54,
		140.54,
		140.56,
		140.59,
		140.59,
		140.59,
		140.6,
		140.55,
		140.565,
		140.53,
		140.53,
		140.53,
		140.55,
		140.56,
		140.57,
		140.56,
		140.56,
		140.54,
		140.54,
		140.535,
		140.54,
		140.495,
		140.475,
		140.53,
		140.52,
		140.52,
		140.5,
		140.48,
		140.48,
		140.48,
		140.48,
		140.44,
		140.43,
		140.48,
		140.43,
		140.42,
		140.41,
		140.37,
		140.37,
		140.37,
		140.415,
		140.415,
		140.42,
		140.435,
		140.395,
		140.415,
		140.41,
		140.38,
		140.41,
		140.4,
		140.42,
		140.43,
		140.435,
		140.425,
		140.44,
		140.445,
		140.45,
		140.445,
		140.45,
		140.43,
		140.41,
		140.41,
		140.4,
		140.41,
		140.43,
		140.4,
		140.405,
		140.385,
		140.385,
		140.38,
		140.4,
		140.42,
		140.205,
		140.21,
		140.21,
		140.2,
		140.18,
		140.12,
		140.19,
		140.2,
		140.2,
		140.21,
		140.145,
		140.145,
		140.15,
		140.165,
		140.18,
		140.18,
		140.185,
		140.185,
		140.19,
		140.19,
		140.165,
		140.165,
		140.14,
		140.14,
		140.13,
		140.12,
		140.12,
		140.13,
		140.11,
		140.135,
		140.115,
		140.09,
		140.07,
		140.08,
		140.07,
		140.07,
		140.07,
		140.08,
		140.08,
		140.06,
		140.005,
		140.005,
		140.01,
		140.01,
		140.01,
		140.02,
		140.015,
		140.05,
		140.05,
		140.04,
		140.02,
		140.02,
		140.02,
		140.02,
		140.02,
		140.02,
		140.01,
		140.02,
		140.02,
		139.99,
		139.98,
		139.96,
		139.97,
		139.925,
		139.92,
		139.92,
		139.96,
		139.94,
		139.95,
		139.945,
		139.96,
		139.93,
		139.94,
		140.0,
		139.925,
		139.93,
		139.94,
		139.95,
		139.95,
		139.98,
		139.985,
		139.98,
		140.0,
		140.0,
		140.0,
		140.01,
		140.03,
		140.005,
		140.045,
		140.1,
		140.1,
		140.1,
		140.09,
		140.095,
		140.11,
		140.12,
		140.095,
		140.095,
		140.105,
		140.12,
		140.1,
		140.11,
		140.11,
		140.11,
		140.11,
		140.09,
		140.09,
		140.09,
		140.09,
		140.115,
		140.09,
		140.105,
		140.1,
		140.065,
		140.02,
		140.03,
		140.03,
		140.045,
		140.025,
		140.0,
		140.005,
		140.0,
		140.015,
		140.045,
		140.04,
		140.04,
		140.03,
		140.04,
		140.04,
		140.07,
		140.06,
		140.06,
		140.06,
		140.075,
		140.07,
		140.07,
		140.07,
		140.07,
		140.07,
		140.07,
		140.05,
		140.065,
		140.04,
		140.05,
		140.03,
		140.04,
		140.035,
		140.035,
		140.015,
		140.01,
		140.005,
		140.0,
		140.075,
		140.13,
		140.14,
		140.145,
		140.15,
		140.15,
		140.12,
		140.11,
		140.1,
		140.11,
		140.19,
		140.24,
		140.245,
		140.25,
		140.25,
		140.265,
		140.27,
		140.255,
		140.255,
		140.255,
		140.26,
		140.28,
		140.28,
		140.29,
		140.38,
		140.37,
		140.37,
		140.37,
		140.38,
		140.38,
		140.4,
		140.37,
		140.39,
		140.37,
		140.37,
		140.37,
		140.37,
		140.37,
		140.405,
		140.435,
		140.4,
		140.4,
		140.4,
		140.4,
		140.4,
		140.4,
		140.4,
		140.41,
		140.385,
		140.38,
		140.38,
		140.38,
		140.39,
		140.385,
		140.37,
		140.28,
		140.25,
		140.25,
		140.21,
		140.26,
		140.195,
		140.18,
		140.12,
		140.15,
		140.14,
		140.16,
		140.16,
		140.13,
		140.1,
		140.11,
		140.12,
		140.12,
		140.12,
		140.12,
		140.13,
		140.13,
		140.13,
		140.14,
		140.14,
		140.145,
		140.14,
		140.14,
		140.14,
		140.14,
		140.14,
		140.14,
		140.11,
		140.11,
		140.06,
		140.09,
		140.09,
		140.09,
		140.09,
		140.1,
		140.1,
		140.1,
		140.1,
		140.12,
		140.17,
		140.21,
		140.23,
		140.245,
		140.25,
		140.25,
		140.14,
		140.16,
		140.15,
		140.15,
		140.135,
		140.145,
		140.18,
		140.22,
		140.22,
		140.22,
		140.22,
		140.21,
		140.2,
		140.18,
		140.18,
		140.2,
		140.215,
		140.185,
		140.16,
		140.155,
		140.14,
		140.1,
		140.115,
		140.13,
		140.13,
		140.14,
		140.12,
		140.12,
		140.1,
		140.07,
		140.14,
		140.13,
		140.12,
		140.12,
		140.12,
		140.12,
		140.12,
		140.12,
		140.18,
		140.18,
		140.245,
		140.3,
		140.27,
		140.3,
		140.32,
		140.31,
		140.325,
		140.32,
		140.295,
		140.3,
		140.29,
		140.27,
		140.27,
		140.26,
		140.26,
		140.26,
		140.2,
		140.19,
		140.14,
		140.16,
		140.16,
		140.1,
		140.14,
		140.14,
		140.14,
		140.14,
		140.14,
		140.14,
		140.15,
		140.155,
		140.15,
		140.15,
		140.15,
		140.15,
		140.15,
		140.15,
		140.1,
		140.1,
		140.09,
		140.07,
		140.08,
		140.1,
		140.1,
		140.1,
		140.1,
		140.1,
		140.1,
		140.1,
		140.1,
		140.115,
		140.11,
		140.1,
		140.09,
		140.06,
		140.05,
		140.05,
		140.05,
		140.06,
		140.085,
		140.07,
		140.09,
		140.08,
		140.08,
		140.05,
		140.05,
		140.06,
		140.06,
		140.065,
		140.05,
		140.07,
		140.07,
		140.06,
		140.11,
		140.11,
		140.11,
		140.075,
		140.15,
		140.155,
		140.18,
		140.12,
		140.1,
		140.12,
		140.135,
		140.135,
		140.16,
		140.16,
		140.175,
		140.175,
		140.18,
		140.19,
		140.21,
		140.21,
		140.27,
		140.33,
		140.365,
		140.365,
		140.27,
		140.27,
		140.24,
		140.215,
		140.28,
		140.28,
		140.27,
		140.21,
		140.21,
		140.21,
		140.2,
		140.195,
		140.18,
		140.19,
		140.19,
		140.19,
		140.21,
		140.2,
		140.12,
		140.1,
		140.1,
		140.11,
		140.11,
		140.135,
		140.145,
		140.125,
		140.125,
		140.15,
		140.17,
		140.17,
		140.19,
		140.19,
		140.19,
		140.205,
		140.21,
		140.21,
		140.21,
		140.18,
		140.18,
		140.18,
		140.195,
		140.195,
		140.18,
		140.19,
		140.19,
		140.19,
		140.19,
		140.2,
		140.2,
		140.2,
		140.2,
		140.24,
		140.24,
		140.26,
		140.26,
		140.26,
		140.25,
		140.24,
		140.25,
		140.31,
		140.34,
		140.34,
		140.32,
		140.32,
		140.34,
		140.34,
		140.34,
		140.29,
		140.285,
		140.28,
		140.295,
		140.3,
		140.3,
		140.34,
		140.31,
		140.31,
		140.33,
		140.33,
		140.33,
		140.33,
		140.305,
		140.29,
		140.29,
		140.285,
		140.28,
		140.27,
		140.28,
		140.295,
		140.29,
		140.295,
		140.3,
		140.29,
		140.275,
		140.275,
		140.265,
		140.27,
		140.265,
		140.27,
		140.255,
		140.25,
		140.245,
		140.24,
		140.245,
		140.25,
		140.26,
		140.26,
		140.26,
		140.275,
		140.27,
		140.225,
		140.225,
		140.215,
		140.225,
		140.25,
		140.25,
		140.25,
		140.25,
		140.26,
		140.245,
		140.23,
		140.235,
		140.235,
		140.235,
		140.225,
		140.225,
		140.225,
		140.22,
		140.22,
		140.27,
		140.25,
		140.235,
		140.23,
		140.19,
		140.125,
		140.14,
		140.14,
		140.14,
		140.14,
		140.145,
		140.12,
		140.14,
		140.14,
		140.12,
		140.11,
		140.11,
		140.11,
		140.11,
		140.12,
		140.12,
		140.12,
		140.12,
		140.14,
		140.15,
		140.135,
		140.17,
		140.17,
		140.17,
		140.17,
		140.17,
		140.17,
		140.19,
		140.19,
		140.19,
		140.27,
		140.29,
		140.285,
		140.28,
		140.285,
		140.285,
		140.285,
		140.32,
		140.32,
		140.32,
		140.32,
		140.32,
		140.32,
		140.31,
		140.31,
		140.31,
		140.32,
		140.35,
		140.27,
		140.31,
		140.31,
		140.36,
		140.35,
		140.35,
		140.36,
		140.36,
		140.36,
		140.36,
		140.37,
		140.37,
		140.37,
		140.37,
		140.43,
		140.4,
		140.38,
		140.41,
		140.45,
		140.45,
		140.455,
		140.46,
		140.45,
		140.45,
		140.45,
		140.45,
		140.45,
		140.45,
		140.45,
		140.45,
		140.45,
		140.45,
		140.41,
		140.38,
		140.38,
		140.38,
		140.38,
		140.38,
		140.38,
		140.38,
		140.36,
		140.37,
		140.28,
		140.24,
		140.21,
		140.175,
		140.19,
		140.2,
		140.2,
		140.2,
		140.21,
		140.21,
		140.23,
		140.23,
		140.215,
		140.25,
		140.24,
		140.24,
		140.225,
		140.23,
		140.23,
		140.23,
		140.23,
		140.23,
		140.23,
		140.22,
		140.27,
		140.27,
		140.25,
		140.235,
		140.245,
		140.27,
		140.27,
		140.245,
		140.24,
		140.24,
		140.24,
		140.225,
		140.23,
		140.225,
		140.22,
		140.22,
		140.22,
		140.21,
		140.23,
		140.2,
		140.18,
		140.18,
		140.18,
		140.19,
		140.19,
		140.19,
		140.22,
		140.24,
		140.24,
		140.22,
		140.22,
		140.22,
		140.23,
		140.22,
		140.22,
		140.22,
		140.22,
		140.22,
		140.22,
		140.22,
		140.23,
		140.22,
		140.22,
		140.22,
		140.235,
		140.235,
		140.21,
		140.21,
		140.2,
		140.195,
		140.195,
		140.195,
		140.195,
		140.195,
		140.215,
		140.215,
		140.21,
		140.21,
		140.21,
		140.19,
		140.19,
		140.17,
		140.17,
		140.17,
		140.17,
		140.18,
		140.18,
		140.17,
		140.145,
		140.145,
		140.145,
		140.15,
		140.15,
		140.145,
		140.14,
		140.145,
		140.15,
		140.15,
		140.15,
		140.15,
		140.15,
		140.15,
		140.15,
		140.15,
		140.15,
		140.15,
		140.15,
		140.15,
		140.14,
		140.14,
		140.14,
		140.14,
		140.16,
		140.16,
		140.155,
		140.155,
		140.155,
		140.155,
		140.15,
		140.145,
		140.145,
		140.145,
		140.145,
		140.14,
		140.14,
		140.14,
		140.125,
		140.125,
		140.125,
		140.12,
		140.14,
		140.14,
		140.14,
		140.14,
		140.13,
		140.13,
		140.13,
		140.14,
		140.15,
		140.16,
		140.155,
		140.16,
		140.16,
		140.165,
		140.165,
		140.165,
		140.165,
		140.165,
		140.165,
		140.17,
		140.165,
		140.165,
		140.195,
		140.23,
		140.255,
		140.26,
		140.26,
		140.255,
		140.255,
		140.255,
		140.255,
		140.25,
		140.215,
		140.215,
		140.225,
		140.23,
		140.24,
		140.24,
		140.23,
		140.23,
		140.22,
		140.23,
		140.23,
		140.22,
		140.22,
		140.22,
		140.19,
		140.18,
		140.18,
		140.19,
		140.18,
		140.18,
		140.17,
		140.165,
		140.15,
		140.15,
		140.17,
		140.17,
		140.195,
		140.19,
		140.18,
		140.18,
		140.205,
		140.235,
		140.275,
		140.28,
		140.28,
		140.28,
		140.28,
		140.28,
		140.31,
		140.295,
		140.28,
		140.27,
		140.265,
		140.18,
		140.14,
		140.17,
		140.13,
		140.13,
		140.1,
		140.1,
		140.105,
		140.125,
		140.15,
		140.15,
		140.13,
		140.13,
		140.13,
		140.17,
		140.155,
		140.17,
		140.12,
		140.14,
		140.14,
		140.14,
		140.145,
		140.14,
		140.14,
		140.155,
		140.15,
		140.16,
		140.16,
		140.16,
		140.165,
		140.14,
		140.14,
		140.15,
		140.15,
		140.15,
		140.15,
		140.15,
		140.15,
		140.16,
		140.17,
		140.16,
		140.14,
		140.14,
		140.15,
		140.15,
		140.15,
		140.15,
		140.14,
		140.125,
		140.125,
		140.085,
		140.08,
		140.09,
		140.085,
		140.08,
		140.08,
		140.08,
		140.06,
		139.96,
		139.965,
		139.945,
		139.915,
		139.915,
		139.92,
		139.98,
		139.98,
		139.99,
		139.995,
		139.995,
		139.98,
		139.975,
		139.95,
		139.975,
		139.97,
		139.95,
		139.95,
		139.955,
		139.955,
		139.95,
		139.92,
		139.93,
		139.91,
		139.915,
		139.9,
		139.89,
		139.89,
		139.89,
		139.85,
		139.85,
		139.85,
		139.85,
		139.83,
		139.885,
		139.885,
		139.88,
		139.88,
		139.87,
		139.87,
		139.87,
		139.87,
		139.85,
		139.84,
		139.84,
		139.79,
		139.79,
		139.78,
		139.78,
		139.77,
		139.77,
		139.77,
		139.75,
		139.75,
		139.75,
		139.75,
		139.765,
		139.795,
		139.79,
		139.79,
		139.77,
		139.77,
		139.77,
		139.77,
		139.78,
		139.78,
		139.78,
		139.79,
		139.775,
		139.86,
		139.865,
		139.865,
		139.89,
		139.83,
		139.87,
		139.885,
		139.9,
		139.93,
		139.95,
		139.95,
		139.95,
		139.96,
		139.96,
		139.97,
		139.92,
		139.92,
		139.92,
		139.92,
		139.92,
		139.92,
		139.87,
		139.82,
		139.82,
		139.83,
		139.83,
		139.83,
		139.85,
		139.84,
		139.87,
		139.86,
		139.86,
		139.86,
		139.855,
		139.855,
		139.865,
		139.89,
		139.89,
		139.89,
		139.89,
		139.85,
		139.855,
		139.88,
		139.85,
		139.85,
		139.87,
		139.87,
		139.87,
		139.855,
		139.855,
		139.85,
		139.835,
		139.84,
		139.84,
		139.83,
		139.8,
		139.83,
		139.83,
		139.85,
		139.85,
		139.85,
		139.865,
		139.86,
		139.83,
		139.84,
		139.83,
		139.89,
		139.89,
		139.87,
		139.87,
		139.87,
		139.84,
		139.84,
		139.85,
		139.85,
		139.85,
		139.84,
		139.86,
		139.91,
		139.935,
		140.0,
		140.0,
		140.0,
		140.0,
		140.0,
		139.89,
		139.91,
		139.91,
		139.91,
		139.92,
		139.93,
		139.93,
		139.93,
		139.93,
		139.865,
		139.83,
		139.83,
		139.84,
		139.84,
		139.85,
		139.85,
		139.85,
		139.85,
		139.85,
		139.85,
		139.85,
		139.85,
		139.84,
		139.84,
		139.84,
		139.83,
		139.83,
		139.83,
		139.8,
		139.8,
		139.8,
		139.8,
		139.8,
		139.8,
		139.8,
		139.8,
		139.825,
		139.81,
		139.81,
		139.81,
		139.79,
		139.79,
		139.79,
		139.75,
		139.72,
		139.71,
		139.71,
		139.74,
		139.74,
		139.745,
		139.73,
		139.73,
		139.73,
		139.72,
		139.72,
		139.665,
		139.665,
		139.645,
		139.62,
		139.63,
		139.63,
		139.64,
		139.64,
		139.64,
		139.63,
		139.63,
		139.67,
		139.7,
		139.72,
		139.72,
		139.73,
		139.74,
		139.76,
		139.76,
		139.755,
		139.73,
		139.74,
		139.745,
		139.75,
		139.75,
		139.75,
		139.74,
		139.74,
		139.73,
		139.73,
		139.755,
		139.75,
		139.77,
		139.78,
		139.78,
		139.79,
		139.79,
		139.8,
		139.8,
		139.78,
		139.785,
		139.73,
		139.68,
		139.7,
		139.665,
		139.65,
		139.67,
		139.67,
		139.67,
		139.67,
		139.67,
		139.695,
		139.7,
		139.7,
		139.7,
		139.71,
		139.72,
		139.725,
		139.72,
		139.725,
		139.72,
		139.705,
		139.705,
		139.665,
		139.665,
		139.66,
		139.66,
		139.665,
		139.7,
		139.64,
		139.65,
		139.66,
		139.665,
		139.67,
		139.7,
		139.71,
		139.7,
		139.76,
		139.76,
		139.76,
		139.76,
		139.76,
		139.76,
		139.77,
		139.8,
		139.8,
		139.8,
		139.8,
		139.78,
		139.78,
		139.78,
		139.78,
		139.78,
		139.78,
		139.78,
		139.78,
		139.785,
		139.78,
		139.78,
		139.76,
		139.75,
		139.725,
		139.72,
		139.74,
		139.69,
		139.69,
		139.7,
		139.69,
		139.69,
		139.7,
		139.7,
		139.71,
		139.71,
		139.73,
		139.73,
		139.74,
		139.74,
		139.74,
		139.74,
		139.74,
		139.74,
		139.74,
		139.74,
		139.74,
		139.74,
		139.74,
		139.74,
		139.77,
		139.79,
		139.79,
		139.79,
		139.78,
		139.76,
		139.76,
		139.77,
		139.78,
		139.78,
		139.785,
		139.785,
		139.785,
		139.785,
		139.79,
		139.775,
		139.775,
		139.77,
		139.76,
		139.76,
		139.76,
		139.76,
		139.76,
		139.74,
		139.74,
		139.745,
		139.76,
		139.75,
		139.75,
		139.75,
		139.75,
		139.75,
		139.75,
		139.75,
		139.76,
		139.75,
		139.76,
		139.76,
		139.76,
		139.76,
		139.79,
		139.75,
		139.67,
		139.67,
		139.67,
		139.68,
		139.67,
		139.64,
		139.7,
		139.7,
		139.7,
		139.71,
		139.7,
		139.7,
		139.7,
		139.7,
		139.67,
		139.68,
		139.655,
		139.65,
		139.65,
		139.65,
		139.66,
		139.66,
		139.65,
		139.65,
		139.65,
		139.645,
		139.64,
		139.63,
		139.65,
		139.65,
		139.65,
		139.65,
		139.65,
		139.66,
		139.66,
		139.66,
		139.655,
		139.66,
		139.635,
		139.645,
		139.655,
		139.64,
		139.63,
		139.63,
		139.63,
		139.64,
		139.64,
		139.63,
		139.63,
		139.63,
		139.63,
		139.64,
		139.64,
		139.64,
		139.64,
		139.645,
		139.65,
		139.65,
		139.67,
		139.65,
		139.65,
		139.63,
		139.63,
		139.63,
		139.64,
		139.645,
		139.65,
		139.65,
		139.64,
		139.64,
		139.66,
		139.61,
		139.63,
		139.625,
		139.615,
		139.61,
		139.585,
		139.595,
		139.6,
		139.6,
		139.59,
		139.57,
		139.6,
		139.6,
		139.62,
		139.615,
		139.615,
		139.61,
		139.615,
		139.64,
		139.65,
		139.65,
		139.655,
		139.65,
		139.66,
		139.66,
		139.66,
		139.66,
		139.66,
		139.66,
		139.665,
		139.67,
		139.66,
		139.66,
		139.67,
		139.69,
		139.69,
		139.7,
		139.7,
		139.715,
		139.75,
		139.755,
		139.77,
		139.77,
		139.74,
		139.74,
		139.76,
		139.76,
		139.78,
		139.78,
		139.78,
		139.785,
		139.775,
		139.78,
		139.795,
		139.8,
		139.8,
		139.82,
		139.81,
		139.82,
		139.85,
		139.85,
		139.85,
		139.88,
		139.885,
		139.88,
		139.875,
		139.885,
		139.905,
		139.9,
		139.905,
		139.905,
		139.91,
		139.92,
		139.935,
		139.935,
		139.96,
		139.92,
		139.88,
		139.88,
		139.88,
		139.88,
		139.9,
		139.91,
		139.83,
		139.84,
		139.83,
		139.83,
		139.83,
		139.83,
		139.83,
		139.81,
		139.81,
		139.81,
		139.8,
		139.78,
		139.77,
		139.77,
		139.775,
		139.76,
		139.73,
		139.73,
		139.73,
		139.73,
		139.73,
		139.73,
		139.73,
		139.73,
		139.73,
		139.73,
		139.73,
		139.73,
		139.73,
		139.73,
		139.74,
		139.75,
		139.75,
		139.75,
		139.75,
		139.75,
		139.74,
		139.73,
		139.69,
		139.69,
		139.655,
		139.65,
		139.65,
		139.65,
		139.65,
		139.65,
		139.63,
		139.63,
		139.63,
		139.65,
		139.69,
		139.705,
		139.74,
		139.74,
		139.735,
		139.73,
		139.74,
		139.74,
		139.74,
		139.79,
		139.785,
		139.755,
		139.75,
		139.74,
		139.74,
		139.74,
		139.74,
		139.74,
		139.735,
		139.72,
		139.74,
		139.75,
		139.72,
		139.72,
		139.765,
		139.765,
		139.8,
		139.81,
		139.75,
		139.74,
		139.755,
		139.735,
		139.72,
		139.72,
		139.72,
		139.725,
		139.72,
		139.72,
		139.72,
		139.72,
		139.72,
		139.72,
		139.72,
		139.755,
		139.79,
		139.785,
		139.82,
		139.82,
		139.83,
		139.83,
		139.83,
		139.83,
		139.79,
		139.87,
		139.87,
		139.87,
		139.87,
		139.89,
		139.95,
		139.945,
		139.945,
		139.88,
		139.82,
		139.82,
		139.82,
		139.73,
		139.73,
		139.74,
		139.74,
		139.735,
		139.735,
		139.75,
		139.78,
		139.735,
		139.74,
		139.755,
		139.745,
		139.765,
		139.765,
		139.76,
		139.765,
		139.77,
		139.78,
		139.78,
		139.785,
		139.8,
		139.8,
		139.78,
		139.725,
		139.72,
		139.72,
		139.72,
		139.72,
		139.73,
		139.73,
		139.79,
		139.76,
		139.76,
		139.77,
		139.76,
		139.74,
		139.745,
		139.74,
		139.74,
		139.74,
		139.72,
		139.72,
		139.755,
		139.75,
		139.75,
		139.75,
		139.75,
		139.755,
		139.76,
		139.77,
		139.79,
		139.78,
		139.79,
		139.81,
		139.82,
		139.8,
		139.8,
		139.79,
		139.795,
		139.795,
		139.79,
		139.78,
		139.78,
		139.78,
		139.795,
		139.77,
		139.785,
		139.79,
		139.8,
		139.8,
		139.795,
		139.8,
		139.825,
		139.82,
		139.82,
		139.8,
		139.8,
		139.825,
		139.815,
		139.805,
		139.8,
		139.8,
		139.795,
		139.795,
		139.795,
		139.785,
		139.785,
		139.785,
		139.785,
		139.785,
		139.785,
		139.775,
		139.775,
		139.775,
		139.775,
		139.775,
		139.775,
		139.775,
		139.775,
		139.77,
		139.77,
		139.77,
		139.76,
		139.77,
		139.77,
		139.77,
		139.77,
		139.77,
		139.765,
		139.765,
		139.75,
		139.76,
		139.75,
		139.765,
		139.77,
		139.75,
		139.75,
		139.75,
		139.75,
		139.75,
		139.75,
		139.75,
		139.75,
		139.75,
		139.76,
		139.75,
		139.75,
		139.75,
		139.75,
		139.75,
		139.75,
		139.75,
		139.75,
		139.75,
		139.75,
		139.75,
		139.75,
		139.75,
		139.76,
		139.74,
		139.77,
		139.77,
		139.74,
		139.74,
		139.75,
		139.77,
		139.77,
		139.77,
		139.73,
		139.725,
		139.715,
		139.725,
		139.73,
		139.73,
		139.73,
		139.74,
		139.76,
		139.77,
		139.75,
		139.75,
		139.76,
		139.76,
		139.76,
		139.76,
		139.76,
		139.775,
		139.775,
		139.775,
		139.775,
		139.775,
		139.77,
		139.77,
		139.77,
		139.76,
		139.77,
		139.76,
		139.785,
		139.795,
		139.795,
		139.795,
		139.82,
		139.82,
		139.8,
		139.79,
		139.78,
		139.765,
		139.77,
		139.78,
		139.79,
		139.77,
		139.785,
		139.775,
		139.76,
		139.76,
		139.76,
		139.77,
		139.765,
		139.74,
		139.75,
		139.78,
		139.78,
		139.78,
		139.8,
		139.81,
		139.81,
		139.81,
		139.81,
		139.8,
		139.8,
		139.8,
		139.8,
		139.805,
		139.805,
		139.81,
		139.805,
		139.805,
		139.79,
		139.79,
		139.79,
		139.785,
		139.79,
		139.81,
		139.82,
		139.82,
		139.82,
		139.815,
		139.805,
		139.81,
		139.825,
		139.875,
		139.875,
		139.88,
		139.88,
		139.88,
		139.885,
		139.87,
		139.87,
		139.86,
		139.88,
		139.83,
		139.84,
		139.86,
		139.855,
		139.865,
		139.89,
		139.9,
		139.96,
		139.96,
		139.98,
		140.0,
		139.98,
		139.975,
		140.0,
		139.965,
		139.965,
		139.995,
		139.99,
		140.0,
		140.005,
		140.01,
		140.01,
		140.04,
		140.06,
		140.08,
		140.095,
		140.085,
		140.085,
		140.09,
		140.12,
		140.14,
		140.145,
		140.13,
		140.12,
		140.12,
		140.1,
		140.105,
		140.1,
		140.1,
		140.11,
		140.1,
		140.1,
		140.1,
		140.1,
		140.11,
		140.11,
		140.11,
		140.11,
		140.11,
		140.115,
		140.1,
		140.07,
		140.06,
		140.055,
		140.13,
		140.13,
		140.14,
		140.145,
		140.14,
		140.14,
		140.14,
		140.14,
		140.175,
		140.175,
		140.16,
		140.16,
		140.18,
		140.18,
		140.16,
		140.18,
		140.18,
		140.17,
		140.13,
		140.13,
		140.13,
		140.13,
		140.13,
		140.14,
		140.12,
		140.09,
		140.09,
		140.1,
		140.1,
		140.1,
		140.095,
		140.09,
		140.05,
		140.03,
		140.03,
		139.99,
		139.96,
		139.96,
		140.0,
		140.01,
		140.015,
		140.02,
		140.02,
		140.02,
		139.97,
		139.975,
		140.0,
		139.945,
		139.95,
		139.935,
		139.96,
		139.94,
		139.94,
		139.95,
		139.95,
		139.95,
		139.95,
		139.96,
		139.96,
		139.97,
		139.97,
		140.0,
		140.01,
		140.0,
		140.0,
		140.0,
		140.04,
		140.04,
		140.01,
		140.04,
		140.04,
		140.04,
		140.06,
		140.06,
		140.04,
		140.05,
		140.02,
		140.03,
		140.08,
		140.085,
		140.085,
		140.09,
		140.1,
		140.09,
		140.105,
		140.125,
		140.12,
		140.08,
		140.01,
		140.01,
		140.01,
		140.02,
		140.02,
		140.01,
		140.0,
		140.0,
		139.995,
		139.995,
		139.98,
		139.98,
		139.985,
		139.98,
		139.985,
		139.975,
		139.975,
		139.975,
		139.975,
		139.97,
		139.98,
		139.98,
		139.98,
		139.99,
		140.005,
		139.99,
		139.98,
		139.98,
		139.97,
		139.97,
		139.98,
		139.98,
		139.99,
		139.96,
		139.965,
		139.97,
		139.985,
		139.98,
		140.0,
		140.0,
		140.0,
		140.05,
		140.005,
		139.98,
		140.01,
		140.01,
		140.01,
		139.985,
		140.0,
		140.0,
		139.91,
		139.91,
		139.895,
		139.89,
		139.86,
		139.85,
		139.85,
		139.85,
		139.86,
		139.86,
		139.86,
		139.86,
		139.89,
		139.89,
		139.87,
		139.86,
		139.86,
		139.85,
		139.88,
		139.88,
		139.91,
		139.91,
		139.91,
		139.9,
		139.83,
		139.82,
		139.81,
		139.78,
		139.785,
		139.83,
		139.81,
		139.81,
		139.81,
		139.81,
		139.78,
		139.78,
		139.78,
		139.78,
		139.78,
		139.79,
		139.8,
		139.81,
		139.815,
		139.81,
		139.81,
		139.82,
		139.82,
		139.83,
		139.84,
		139.8,
		139.805,
		139.805,
		139.82,
		139.82,
		139.84,
		139.84,
		139.83,
		139.81,
		139.8,
		139.8,
		139.8,
		139.81,
		139.81,
		139.81,
		139.82,
		139.84,
		139.86,
		139.89,
		139.88,
		139.895,
		139.865,
		139.905,
		139.895,
		139.9,
		139.915,
		139.92,
		139.92,
		139.95,
		139.96,
		140.005,
		140.07,
		140.085,
		140.085,
		140.07,
		140.07,
		140.08,
		140.085,
		140.085,
		140.085,
		140.08,
		140.08,
		140.08,
		140.12,
		140.115,
		140.09,
		140.09,
		140.105,
		140.105,
		140.135,
		140.155,
		140.16,
		140.04,
		140.03,
		140.03,
		140.025,
		140.005,
		140.0,
		140.0,
		140.06,
		140.08,
		140.09,
		140.09,
		140.09,
		140.09,
		140.08,
		140.06,
		140.09,
		140.1,
		140.1,
		140.09,
		140.07,
		140.08,
		140.03,
		140.02,
		139.98,
		140.02,
		140.045,
		140.03,
		140.035,
		140.05,
		140.045,
		140.06,
		140.06,
		140.05,
		140.065,
		140.08,
		140.09,
		140.05,
		140.03,
		140.04,
		140.04,
		140.05,
		140.07,
		140.07,
		140.02,
		140.07,
		140.07,
		140.07,
		140.06,
		140.055,
		140.04,
		140.04,
		140.04,
		140.07,
		140.07,
		140.07,
		140.07,
		140.075,
		140.04,
		140.08,
		140.09,
		140.055,
		140.06,
		140.05,
		140.05,
		140.06,
		140.065,
		140.07,
		140.065,
		140.07,
		140.09,
		140.1,
		140.11,
		140.095,
		140.045,
		140.04,
		140.04,
		140.04,
		140.04,
		140.04,
		140.005,
		140.01,
		140.01,
		140.02,
		140.02,
		140.04,
		140.06,
		140.06,
		140.07,
		140.07,
		140.07,
		140.07,
		140.08,
		140.105,
		140.1,
		140.11,
		140.115,
		140.13,
		140.13,
		140.135,
		140.135,
		140.12,
		140.12,
		140.14,
		140.17,
		140.165,
		140.16,
		140.14,
		140.14,
		140.15,
		140.13,
		140.115,
		140.11,
		140.12,
		140.115,
		140.115,
		140.1,
		140.1,
		140.07,
		140.07,
		140.07,
		140.08,
		140.08,
		140.05,
		140.03,
		140.0,
		140.01,
		140.01,
		140.01,
		140.04,
		140.07,
		140.09,
		140.06,
		140.06,
		140.1,
		140.1,
		140.095,
		140.11,
		140.11,
		140.12,
		140.12,
		140.135,
		140.135,
		140.13,
		140.14,
		140.1,
		140.095,
		140.09,
		140.09,
		140.09,
		140.095,
		140.095,
		140.075,
		140.075,
		140.06,
		140.03,
		140.0,
		140.01,
		140.01,
		140.0,
		140.0,
		140.0,
		140.0,
		139.98,
		139.98,
		139.99,
		140.01,
		139.98,
		140.02,
		140.005,
		140.0,
		140.0,
		140.0,
		140.015,
		140.02,
	}
)
